aX,aY,aZ,gX,gY,gZ
-0.797,0.843,1.172,-28.015,-5.005,17.944
-0.840,0.913,1.169,-23.499,-31.616,1.770
-0.864,0.996,1.146,-21.667,-35.950,-5.310
-0.818,1.123,1.139,-22.095,-30.457,-10.437
-0.808,1.183,1.100,-22.766,-29.480,-8.850
-0.803,1.272,0.949,-22.156,-34.119,-4.578
-0.807,1.235,0.825,-17.395,-39.124,-3.967
-0.875,0.951,0.534,14.709,-70.923,-18.066
-0.872,0.740,0.410,41.809,-96.680,-38.208
-0.673,0.300,0.309,94.360,-109.985,-68.542
-0.481,0.116,0.408,90.637,-35.706,-31.982
-0.000,-0.560,0.805,65.430,17.151,7.019
0.174,-0.867,1.001,12.024,71.655,49.194
0.155,-1.122,1.054,10.437,32.532,30.884
0.003,-1.164,0.832,74.402,-103.882,-60.425
-0.190,-1.127,0.414,115.784,-126.648,-93.384
-0.050,-1.175,0.477,126.282,20.325,-83.252
0.711,-1.209,0.937,78.918,126.831,-62.988
1.168,-1.042,1.132,-14.709,155.212,-31.311
1.249,-0.791,0.848,-2.686,69.092,-15.991
0.770,-0.837,0.456,143.250,-132.751,-11.536
-0.133,-1.147,0.192,212.341,-155.457,-20.691
0.037,-1.043,1.193,226.379,4.089,-56.885
0.478,-0.667,1.957,191.101,102.051,-84.717
1.194,0.173,2.712,87.708,121.704,-88.623
1.151,0.298,2.355,-39.612,-32.532,30.884
0.260,-0.178,0.935,-79.041,-91.553,96.680
-0.211,-0.481,0.387,-80.322,-93.628,123.047
-0.540,-0.732,0.182,-60.730,-54.871,93.018
-0.463,-0.744,0.348,-30.884,21.423,31.677
-0.268,-0.693,0.794,-22.095,34.729,15.259
-0.222,-0.636,0.985,-17.273,22.217,12.878
-0.264,-0.622,1.222,-20.508,12.573,19.165
-0.285,-0.683,1.246,-33.508,8.057,22.827
-0.199,-0.746,1.304,-40.894,4.700,20.752
-0.140,-0.750,1.304,-60.547,16.113,24.170
-0.088,-0.773,1.190,-71.289,28.625,30.334
-0.042,-0.832,1.123,-74.524,34.485,32.654
0.021,-0.888,1.110,-64.819,23.804,24.536
0.104,-0.986,1.123,-40.955,-7.751,-5.554
0.132,-0.991,1.135,-39.246,-20.630,-20.203
0.134,-0.849,1.014,-90.637,-13.489,-19.348
0.077,-0.668,0.866,-137.268,0.427,2.014
-0.082,-0.281,0.552,-188.843,-3.845,30.579
-0.125,-0.147,0.469,-129.761,-41.321,-4.150
-0.144,-0.117,0.541,-83.191,-59.021,-16.846
-0.155,-0.230,0.635,-49.255,-48.096,-1.892
-0.142,-0.340,0.792,-69.031,-11.108,15.625
-0.084,-0.175,0.827,-125.977,45.715,49.622
-0.119,0.265,0.804,-140.137,26.123,55.054
-0.185,0.434,0.732,-117.432,-67.139,34.302
-0.307,0.499,0.596,-89.294,-96.375,24.536
-0.344,0.387,0.540,-49.133,-80.994,28.015
-0.357,0.186,0.465,-47.729,-53.284,35.645
-0.324,0.360,0.601,-62.073,-0.732,52.734
-0.307,0.458,0.696,-63.843,16.113,59.326
-0.323,0.467,0.761,-52.307,19.348,59.387
-0.427,0.499,0.802,-41.626,8.850,53.040
-0.525,0.474,0.827,-9.705,-14.099,34.424
-0.556,0.391,0.827,0.244,2.075,29.114
-0.528,0.353,0.824,-13.794,23.315,28.992
-0.490,0.403,0.825,-47.119,59.448,26.245
-0.438,0.537,0.849,-50.354,63.721,22.278
-0.444,0.580,0.858,-33.569,35.156,9.460
-0.512,0.574,0.793,-22.522,6.042,0.549
-0.561,0.605,0.759,-9.766,-51.453,-14.587
-0.651,0.727,0.647,-10.986,-66.711,-19.287
-0.674,0.783,0.570,-18.860,-62.561,-21.973
-0.693,0.855,0.494,-18.860,-44.922,-21.545
-0.676,0.838,0.518,3.479,20.691,-17.029
-0.573,0.710,0.672,19.409,46.387,-10.620
-0.531,0.639,0.747,27.100,55.115,0.977
-0.504,0.524,0.780,25.513,44.739,4.395
-0.514,0.481,0.780,33.936,19.836,1.343
-0.536,0.413,0.857,44.006,18.433,-2.625
-0.522,0.381,0.920,55.237,46.570,-3.540
-0.421,0.312,1.052,50.598,67.627,-0.610
-0.348,0.283,1.117,28.076,95.154,1.587
-0.181,0.256,1.190,18.250,92.468,0.244
-0.127,0.243,1.173,14.343,49.194,-7.202
-0.132,0.249,1.138,17.273,17.944,-13.611
-0.165,0.248,1.128,20.020,-29.053,-23.071
-0.200,0.253,1.099,16.785,-37.170,-22.583
-0.198,0.264,1.067,2.563,-33.447,-13.184
-0.179,0.272,1.011,-4.211,-29.663,-7.385
-0.167,0.260,0.991,-11.353,-23.682,2.502
-0.186,0.223,0.937,-11.108,-21.118,5.188
-0.218,0.242,0.910,-5.920,-14.160,1.587
-0.218,0.254,0.908,-2.502,-7.141,1.770
-0.222,0.240,0.894,-2.563,-5.798,4.761
-0.227,0.224,0.888,-3.601,-4.700,9.460
-0.243,0.189,0.896,-3.906,-4.028,9.827
-0.251,0.179,0.904,-4.150,-0.916,4.944
-0.248,0.197,0.911,-4.456,1.099,1.892
-0.244,0.215,0.904,-5.066,3.784,0.061
-0.234,0.231,0.897,-5.005,5.066,0.183
-0.221,0.231,0.906,-4.883,7.019,-1.282
-0.196,0.222,0.929,-4.089,6.470,-2.625
-0.196,0.227,0.940,0.610,3.479,-4.578
-0.215,0.226,0.968,3.845,2.258,-4.028
-0.220,0.216,0.975,4.578,0.549,-2.258
-0.221,0.216,0.956,1.526,-0.610,-2.563
-0.220,0.226,0.939,-2.319,-2.441,-3.906
-0.220,0.242,0.918,-1.343,-2.258,-3.906
-0.224,0.239,0.914,1.892,-0.977,-3.113
-0.240,0.237,0.906,2.930,4.578,-2.258
-0.224,0.242,0.903,4.639,10.010,-2.197
-0.214,0.243,0.930,5.859,5.005,-2.747
-0.208,0.238,0.951,7.202,1.770,-1.221
-0.192,0.239,0.965,5.676,2.869,0.854
-0.201,0.244,0.962,2.197,1.953,3.967
-0.230,0.233,0.963,2.563,1.831,4.028
-0.237,0.222,0.966,4.333,2.502,0.977
-0.237,0.225,0.970,4.089,2.930,-0.427
-0.229,0.230,0.969,2.869,2.258,0.000
-0.224,0.225,0.956,2.563,0.732,0.488
-0.228,0.223,0.949,2.319,-0.793,0.610
-0.238,0.210,0.936,2.808,0.244,0.549
-0.243,0.203,0.927,4.333,3.845,-1.099

-0.958,1.080,0.932,-17.456,-15.320,20.020
-1.108,1.223,0.977,-5.249,-21.179,24.414
-1.138,1.317,1.108,-1.221,-15.503,26.306
-1.090,1.314,1.093,-13.916,-19.897,29.602
-1.029,1.316,0.873,-26.123,-34.729,28.870
-0.939,1.329,0.689,-33.936,-57.861,19.897
-0.879,1.333,0.668,-26.978,-50.293,21.301
-0.755,1.244,0.659,-25.208,-40.527,32.532
-0.719,1.120,0.632,-24.536,-32.227,50.171
-0.697,0.943,0.574,-18.982,-26.489,84.534
-0.724,0.411,0.257,-4.456,-31.555,87.158
-0.882,-0.147,-0.183,71.655,-65.613,26.672
-0.886,-0.319,-0.300,130.493,-88.135,-35.828
-0.593,-0.567,-0.222,238.220,-83.740,-149.536
-0.313,-0.670,-0.014,245.850,51.086,-160.522
0.308,-0.846,0.588,222.656,131.897,-128.784
0.473,-0.912,0.860,176.819,169.983,-56.763
0.557,-1.131,0.937,152.283,122.681,-28.076
0.611,-1.355,0.666,123.291,26.672,4.211
0.723,-1.859,0.365,159.485,19.531,-10.010
0.718,-1.887,0.767,293.152,68.848,-95.703
0.686,-1.570,2.075,306.458,94.482,-112.793
0.703,-1.280,2.287,145.752,63.232,-58.044
0.545,-0.661,1.684,58.594,-25.513,-32.410
0.305,-0.410,1.186,55.908,-132.263,-27.710
-0.019,-0.213,1.009,93.872,-101.746,-31.921
0.155,-0.379,1.410,75.623,34.546,-9.338
0.239,-0.434,1.418,25.818,69.458,12.207
0.069,-0.469,1.019,-45.959,5.615,46.753
-0.158,-0.490,0.795,-51.331,-83.008,58.960
-0.473,-0.538,0.473,-50.598,-79.712,50.476
-0.488,-0.500,0.420,-51.514,-19.958,17.822
-0.391,-0.343,0.358,-47.485,5.188,6.165
-0.365,-0.292,0.358,-9.399,4.761,-4.639
-0.370,-0.345,0.575,14.648,-1.587,-7.935
-0.345,-0.375,0.734,28.381,12.878,-12.024
-0.245,-0.332,0.992,20.325,24.231,-10.437
-0.209,-0.297,1.034,5.432,26.062,0.977
-0.243,-0.315,0.968,6.470,12.573,6.897
-0.309,-0.358,0.919,18.616,-14.526,11.230
-0.416,-0.427,0.881,22.522,-15.320,9.583
-0.424,-0.438,0.898,21.851,2.075,2.014
-0.353,-0.422,0.979,17.944,11.047,-2.014
-0.271,-0.375,1.017,9.094,14.160,-4.517
-0.271,-0.357,1.004,7.446,6.226,-2.869
-0.330,-0.362,0.955,7.019,-7.812,0.061
-0.342,-0.370,0.946,6.592,-6.104,-1.160
-0.295,-0.363,0.977,6.226,4.333,-8.301
-0.256,-0.352,0.993,6.775,4.944,-13.245
-0.205,-0.331,0.984,6.226,0.427,-12.451
-0.205,-0.326,0.953,4.822,-10.864,-5.371
-0.248,-0.331,0.903,5.859,-14.221,-2.625
-0.267,-0.339,0.911,8.423,-9.521,-2.075
-0.263,-0.353,0.978,7.202,-2.380,-2.563
-0.246,-0.347,1.010,1.465,4.639,-3.235
-0.220,-0.334,0.995,-1.160,1.038,-2.441
-0.233,-0.329,0.948,-2.502,-11.536,1.282
-0.284,-0.328,0.867,-1.160,-14.221,2.686
-0.303,-0.327,0.860,-0.244,-7.568,4.272
-0.302,-0.350,0.901,-0.427,-2.625,4.395
-0.292,-0.355,0.923,-2.136,1.404,1.526
-0.262,-0.329,0.934,-3.479,0.671,-0.305
-0.254,-0.313,0.916,-5.371,-0.671,-0.488
-0.257,-0.303,0.885,-5.981,-4.211,2.747
-0.284,-0.308,0.853,-2.563,-6.226,2.991
-0.295,-0.335,0.869,4.395,-7.874,0.183
-0.286,-0.349,0.874,5.249,-6.897,-1.404
-0.260,-0.339,0.887,2.319,-3.052,-2.197
-0.251,-0.329,0.902,-0.122,-1.404,-1.282
-0.250,-0.321,0.926,-4.639,-2.441,1.770
-0.261,-0.323,0.913,-7.568,-9.033,5.554
-0.307,-0.349,0.847,-6.714,-12.207,6.592
-0.330,-0.359,0.828,-0.977,-11.414,3.235
-0.322,-0.363,0.844,0.244,-7.019,0.854
-0.308,-0.361,0.854,-1.709,0.183,0.366
-0.287,-0.354,0.880,-1.648,0.122,0.183
-0.283,-0.342,0.898,-0.916,-3.784,0.183
-0.295,-0.337,0.912,-1.343,-5.310,1.282
-0.306,-0.341,0.906,-2.625,-4.517,2.991
-0.319,-0.347,0.882,-2.319,-3.540,2.563
-0.317,-0.346,0.881,-0.244,-2.197,-0.183
-0.293,-0.334,0.896,-0.427,-0.366,-0.854
-0.285,-0.326,0.902,-1.709,0.854,0.732
-0.291,-0.333,0.909,-1.465,-2.808,1.282
-0.296,-0.336,0.921,-1.892,-2.930,0.793
-0.290,-0.329,0.929,-2.625,-1.648,0.183
-0.278,-0.315,0.935,-2.441,0.183,-0.366
-0.280,-0.311,0.926,-1.953,-0.916,-0.244
-0.287,-0.312,0.906,-2.197,-3.967,1.160
-0.308,-0.335,0.858,-2.502,-4.639,1.831
-0.319,-0.342,0.854,-1.648,-2.747,0.549
-0.315,-0.334,0.884,-0.854,0.061,-0.793
-0.294,-0.321,0.918,-0.916,4.578,-2.075
-0.290,-0.318,0.924,-1.160,2.319,-0.916
-0.299,-0.323,0.913,-1.709,0.061,-0.183
-0.306,-0.318,0.899,-2.319,-1.221,0.183
-0.310,-0.313,0.891,-1.770,0.427,0.122
-0.303,-0.317,0.894,1.160,2.747,-0.183
-0.291,-0.329,0.901,2.441,2.563,-0.183
-0.287,-0.339,0.906,2.136,2.136,0.061
-0.277,-0.343,0.917,0.061,2.136,0.122
-0.274,-0.339,0.922,-4.578,0.916,1.038
-0.287,-0.335,0.916,-6.409,0.122,2.075
-0.301,-0.333,0.903,-8.545,-0.854,4.272
-0.325,-0.346,0.875,-8.423,-1.465,5.005
-0.337,-0.348,0.866,-6.775,-1.892,4.395
-0.351,-0.348,0.859,-5.249,-1.282,2.563
-0.343,-0.352,0.863,-3.052,0.488,-0.854
-0.313,-0.332,0.883,-3.296,1.404,-1.892
-0.298,-0.318,0.891,-3.967,0.183,-1.587
-0.287,-0.313,0.891,-3.845,-2.625,-0.305
-0.295,-0.315,0.870,-2.747,-9.155,1.404
-0.325,-0.316,0.823,-0.610,-9.949,0.793
-0.322,-0.312,0.854,3.967,-2.808,-2.930
-0.312,-0.311,0.886,4.517,5.737,-3.540
-0.295,-0.316,0.939,3.540,7.629,-3.357
-0.285,-0.315,0.954,2.502,7.324,-3.052
-0.276,-0.311,0.956,0.549,2.380,-1.892
-0.279,-0.310,0.944,-0.977,0.000,-1.221

-0.984,0.842,1.073,-2.869,-19.104,21.545
-1.105,0.967,1.100,-15.076,-28.625,21.301
-1.309,1.227,1.111,-19.653,-39.673,19.531
-1.391,1.354,1.061,-33.997,-61.279,19.043
-1.505,1.534,0.851,-43.884,-60.852,21.606
-1.498,1.562,0.724,-67.261,-15.198,29.053
-1.397,1.552,0.500,-76.172,16.418,32.532
-1.341,1.504,0.424,-72.571,54.504,27.527
-1.245,1.219,0.348,-54.871,55.298,16.479
-1.262,0.994,0.310,22.400,0.427,-30.823
-1.232,0.542,0.176,68.237,-51.514,-64.392
-0.872,0.044,-0.062,109.192,-81.055,-86.426
-0.536,-0.263,-0.133,87.463,-35.645,-61.340
0.281,-1.246,-0.206,20.752,110.840,28.992
0.599,-1.832,-0.133,29.907,171.509,48.218
1.039,-2.312,0.534,221.436,112.732,-84.839
1.227,-2.336,1.150,412.476,-11.230,-223.938
1.385,-2.407,2.094,384.094,1.404,-194.824
1.248,-2.241,2.056,183.105,60.730,-71.960
0.747,-1.411,1.498,125.793,39.612,-43.762
0.536,-0.924,1.314,146.240,-6.897,-71.106
0.442,-0.214,1.419,159.485,6.348,-82.947
0.531,-0.093,1.549,101.501,58.228,-41.931
0.507,-0.156,1.503,55.603,54.810,-4.883
0.314,-0.273,1.309,-7.935,-24.597,59.204
-0.225,-0.506,0.699,-25.940,-58.838,74.890
-0.427,-0.623,0.421,-33.264,-54.016,61.157
-0.514,-0.710,0.186,-28.198,-34.851,38.513
-0.449,-0.618,0.179,-11.597,-16.663,-0.366
-0.290,-0.357,0.324,0.854,-12.817,-8.118
-0.228,-0.279,0.478,20.508,-1.099,-6.042
-0.189,-0.291,0.764,26.855,-1.465,-1.160
-0.226,-0.346,0.823,31.616,-17.883,8.850
-0.337,-0.427,0.802,29.175,-23.071,10.010
-0.355,-0.424,0.786,20.325,-12.512,4.700
-0.310,-0.365,0.840,16.724,-4.150,1.282
-0.280,-0.322,0.880,14.343,-0.061,3.357
-0.289,-0.315,0.942,15.747,-3.235,8.850
-0.330,-0.341,0.954,17.212,-8.545,17.334
-0.424,-0.391,0.954,16.663,-8.362,17.456
-0.458,-0.406,0.952,12.146,0.793,11.719
-0.474,-0.393,0.971,10.132,7.202,7.385
-0.451,-0.396,1.006,11.780,10.315,-0.977
-0.381,-0.409,1.041,11.108,7.141,-3.662
-0.356,-0.387,1.019,2.930,1.892,-3.296
-0.339,-0.336,1.027,-0.793,3.052,-2.258
-0.321,-0.318,1.034,-5.249,11.963,2.014
-0.285,-0.337,1.060,-3.906,9.644,2.563
-0.282,-0.350,1.034,3.540,-4.395,0.916
-0.304,-0.370,0.975,7.935,-10.010,-0.916
-0.305,-0.384,0.961,5.066,-8.850,-3.662
-0.293,-0.357,0.923,-1.404,-5.188,-2.319
-0.289,-0.345,0.909,-6.104,-3.174,1.831
-0.292,-0.360,0.919,-4.883,-3.906,2.441
-0.302,-0.353,0.927,-5.310,-1.709,2.136
-0.303,-0.326,0.930,-6.775,0.977,1.770
-0.296,-0.313,0.904,-9.399,2.625,3.235
-0.321,-0.318,0.828,-7.629,-0.793,4.700
-0.346,-0.334,0.811,0.793,-6.775,4.883
-0.377,-0.354,0.838,3.052,-5.005,3.601
-0.370,-0.346,0.869,2.808,2.808,-0.916
-0.320,-0.313,0.947,0.732,5.981,-2.869
-0.292,-0.293,0.976,-7.019,7.080,-1.526
-0.257,-0.275,0.949,-10.254,3.235,1.465
-0.273,-0.271,0.889,-8.545,-10.376,8.179
-0.341,-0.297,0.808,-3.357,-13.794,8.728
-0.358,-0.327,0.835,3.357,-5.066,3.784
-0.335,-0.323,0.865,1.099,7.568,-2.075
-0.263,-0.317,0.924,-0.488,9.216,-3.418
-0.243,-0.309,0.929,-4.761,2.380,-0.793
-0.269,-0.284,0.892,-5.981,-2.136,2.563
-0.293,-0.283,0.875,-3.540,-4.333,5.493
-0.316,-0.309,0.884,-0.488,-3.906,4.639
-0.318,-0.325,0.893,2.991,-3.479,1.953
-0.315,-0.323,0.886,2.563,-2.991,1.160
-0.307,-0.318,0.886,2.319,-2.136,0.732
-0.289,-0.322,0.915,2.563,-2.686,1.221
-0.284,-0.325,0.930,1.587,-3.784,2.319
-0.287,-0.321,0.920,-4.272,-5.920,4.639
-0.288,-0.314,0.901,-7.263,-6.104,5.310
-0.288,-0.308,0.878,-9.827,-5.249,6.836
-0.301,-0.309,0.855,-8.423,-6.042,6.958
-0.323,-0.326,0.855,-3.723,-7.996,5.859
-0.336,-0.334,0.857,-1.648,-8.606,4.700
-0.344,-0.327,0.841,0.122,-6.714,1.587
-0.345,-0.318,0.836,3.418,-2.686,-0.488
-0.339,-0.325,0.868,5.310,-0.916,-1.465
-0.337,-0.329,0.893,3.967,2.441,-1.160
-0.325,-0.326,0.924,1.770,3.235,-0.793
-0.316,-0.318,0.929,-0.671,0.793,0.305
-0.319,-0.313,0.913,-0.244,-1.831,1.160
-0.327,-0.315,0.901,1.831,-5.676,2.136
-0.340,-0.319,0.874,2.808,-6.531,2.014
-0.347,-0.327,0.866,5.493,-6.897,0.427
-0.355,-0.349,0.881,5.859,-4.883,-0.916
-0.325,-0.337,0.907,1.038,4.211,-2.136
-0.300,-0.316,0.915,-3.296,7.874,-1.709
-0.286,-0.294,0.914,-3.357,5.005,-0.427
-0.301,-0.298,0.899,-1.587,-2.319,2.930
-0.331,-0.318,0.866,-0.366,-4.028,3.601
-0.338,-0.324,0.863,3.601,-5.066,1.648
-0.339,-0.324,0.888,5.188,-4.272,-0.122
-0.329,-0.332,0.904,3.784,1.648,-1.526
-0.302,-0.344,0.935,0.610,4.272,-0.732
-0.297,-0.333,0.939,-5.737,2.625,2.014
-0.316,-0.318,0.898,-7.324,-0.305,3.723
-0.334,-0.315,0.870,-6.592,-3.235,5.066
-0.354,-0.330,0.851,-4.639,-2.808,4.456
-0.355,-0.346,0.868,-1.587,-0.366,2.136
-0.349,-0.340,0.876,-0.488,0.183,0.854
-0.329,-0.332,0.894,1.709,-0.366,-0.427
-0.324,-0.329,0.905,0.793,-0.488,0.671
-0.321,-0.327,0.911,-0.732,-0.793,1.709
-0.326,-0.327,0.898,-2.869,-1.343,2.747
-0.348,-0.325,0.866,-4.272,-3.235,3.174
-0.359,-0.332,0.861,-0.854,-2.686,1.160
-0.358,-0.346,0.883,0.305,-0.305,-0.305
-0.345,-0.342,0.901,-0.244,4.333,-2.686
-0.312,-0.317,0.920,-0.549,4.211,-2.930

-0.965,0.652,1.152,-6.775,-12.329,2.747
-0.987,0.708,1.116,-23.804,-31.982,3.418
-0.970,0.773,0.980,-32.654,-35.950,5.493
-0.956,0.772,0.919,-48.828,-31.433,15.198
-0.915,0.727,0.836,-56.885,-22.522,21.301
-0.889,0.708,0.785,-66.101,-0.061,30.090
-0.862,0.738,0.664,-57.373,6.592,26.672
-0.843,0.769,0.644,-12.878,3.723,8.545
-0.834,0.754,0.676,8.606,1.526,2.747
-0.823,0.693,0.731,20.203,7.507,5.005
-0.809,0.671,0.753,13.672,13.672,10.986
-0.785,0.602,0.771,0.061,32.593,33.813
-0.704,0.240,0.713,0.610,42.358,42.114
-0.648,0.039,0.596,49.438,8.240,4.639
-0.564,-0.274,0.305,100.037,-39.124,-41.138
-0.505,-0.418,0.255,190.735,-63.293,-117.676
-0.117,-0.719,0.602,201.538,5.066,-121.948
0.455,-0.862,1.100,158.447,156.677,-93.262
0.677,-0.827,1.203,94.299,142.212,-77.820
0.766,-0.767,1.007,77.515,78.857,-68.420
0.629,-0.909,0.719,76.111,7.812,-55.420
0.344,-1.260,0.172,108.765,-79.712,-63.782
0.307,-1.213,0.236,168.457,-24.170,-106.689
0.468,-1.077,0.913,180.786,32.898,-103.516
0.458,-1.091,1.266,138.977,85.937,-53.772
0.328,-0.940,1.441,94.482,76.965,-33.630
0.262,-0.754,1.333,41.870,17.151,-16.174
0.073,-0.390,1.142,53.345,1.160,-19.836
0.052,-0.292,1.144,70.740,1.099,-28.503
0.158,-0.206,1.130,58.716,23.926,-23.621
0.206,-0.219,1.060,36.682,30.273,-5.676
-0.021,-0.380,0.796,12.756,-10.437,40.894
-0.266,-0.523,0.679,17.090,-43.701,53.955
-0.531,-0.684,0.606,22.827,-53.040,30.640
-0.484,-0.625,0.625,13.611,-26.306,8.362
-0.359,-0.505,0.683,2.319,22.095,-22.400
-0.065,-0.281,0.818,8.423,22.827,-26.672
-0.028,-0.260,0.840,23.926,-10.742,-6.775
-0.174,-0.371,0.784,22.644,-20.752,6.775
-0.253,-0.419,0.767,14.526,-11.658,14.587
-0.317,-0.441,0.837,14.709,-3.845,8.850
-0.301,-0.416,0.885,17.334,5.310,-4.395
-0.266,-0.363,0.949,18.921,5.737,-5.615
-0.277,-0.363,0.980,20.081,2.197,-1.892
-0.298,-0.384,1.033,14.587,2.869,1.343
-0.310,-0.383,1.007,0.488,4.883,9.399
-0.329,-0.389,0.978,0.610,0.183,10.559
-0.375,-0.424,0.951,11.230,-14.160,4.333
-0.370,-0.432,0.954,13.489,-15.564,-0.427
-0.334,-0.399,0.922,7.996,-9.277,-5.249
-0.311,-0.385,0.909,5.432,-5.981,-6.042
-0.270,-0.379,0.930,2.625,2.014,-5.615
-0.257,-0.385,0.967,2.258,7.812,-3.662
-0.217,-0.369,1.043,1.465,8.301,-3.601
-0.187,-0.349,1.038,-4.395,3.662,0.122
-0.199,-0.337,0.932,-5.188,-3.296,4.150
-0.245,-0.356,0.875,2.502,-18.616,6.653
-0.326,-0.397,0.833,5.493,-18.677,4.639
-0.332,-0.404,0.833,3.235,-4.517,0.427
-0.298,-0.384,0.865,2.869,1.160,-0.977
-0.278,-0.375,0.900,5.371,1.282,-2.991
-0.241,-0.349,0.941,4.089,0.305,-2.441
-0.232,-0.334,0.927,-1.526,-3.540,1.831
-0.258,-0.323,0.854,-1.526,-8.118,4.150
-0.289,-0.340,0.829,4.272,-12.634,5.371
-0.333,-0.381,0.845,6.348,-8.667,3.723
-0.324,-0.392,0.882,5.432,4.578,-2.380
-0.255,-0.365,0.963,1.953,9.216,-4.211
-0.222,-0.338,0.975,-4.944,7.202,-1.587
-0.222,-0.327,0.933,-6.348,1.404,1.770
-0.257,-0.341,0.897,-3.418,-9.521,6.409
-0.318,-0.377,0.858,0.366,-10.986,5.310
-0.324,-0.387,0.857,3.601,-5.371,0.244
-0.303,-0.383,0.880,1.709,-0.061,-1.404
-0.274,-0.355,0.875,-2.686,5.249,-1.831
-0.279,-0.355,0.872,-0.916,1.770,0.244
-0.291,-0.383,0.893,0.977,0.671,0.244
-0.284,-0.387,0.907,1.648,0.977,-0.366
-0.276,-0.379,0.913,-0.427,0.916,-0.305
-0.272,-0.359,0.889,-1.099,-0.732,-0.427
-0.290,-0.364,0.850,0.000,-3.296,-0.061
-0.302,-0.373,0.842,3.296,-3.357,-0.916
-0.298,-0.376,0.863,4.700,-1.526,-2.014
-0.285,-0.373,0.884,5.066,2.197,-3.113
-0.260,-0.364,0.919,3.845,2.380,-2.930
-0.255,-0.361,0.920,0.183,-0.061,-1.099
-0.266,-0.363,0.899,-0.488,-1.953,0.061
-0.271,-0.367,0.890,0.854,-3.662,0.549
-0.274,-0.372,0.881,1.587,-3.662,0.610
-0.278,-0.364,0.886,2.930,-3.784,0.549
-0.279,-0.365,0.893,2.502,-2.502,0.427
-0.275,-0.370,0.898,-1.404,1.648,1.587
-0.265,-0.373,0.882,-3.174,1.709,2.441
-0.274,-0.375,0.856,-1.892,-3.235,2.869
-0.282,-0.377,0.849,1.831,-5.066,1.404
-0.280,-0.379,0.870,2.625,-2.625,0.671
-0.273,-0.379,0.897,1.404,4.028,0.122
-0.260,-0.369,0.947,-0.671,5.615,0.488
-0.250,-0.368,0.947,-6.531,2.930,3.113
-0.259,-0.373,0.873,-7.996,-1.892,5.005
-0.289,-0.382,0.829,-2.441,-12.146,6.226
-0.334,-0.405,0.814,1.221,-11.902,4.395
-0.332,-0.401,0.837,1.404,-0.488,-0.732
-0.294,-0.381,0.899,-1.038,5.493,-2.075
-0.270,-0.372,0.920,-4.395,6.897,-1.587
-0.252,-0.349,0.895,-4.456,1.465,0.549
-0.271,-0.353,0.871,-1.160,-8.423,4.150
-0.303,-0.374,0.848,0.122,-7.935,4.211
-0.312,-0.383,0.848,2.502,-3.052,2.258
-0.318,-0.394,0.890,3.723,-0.671,0.305
-0.308,-0.389,0.921,1.953,5.127,-3.174
-0.270,-0.370,0.946,-0.305,5.920,-3.052
-0.263,-0.364,0.935,-2.319,0.000,-0.244
-0.281,-0.363,0.891,-1.526,-3.357,0.916
-0.294,-0.369,0.882,1.038,-2.930,0.793
-0.292,-0.387,0.896,1.160,-0.061,-0.061
-0.289,-0.387,0.901,-1.038,3.357,-0.916
-0.283,-0.375,0.895,-2.197,3.540,-1.221
-0.283,-0.370,0.887,-3.418,2.808,-0.854

-1.350,0.921,0.786,-20.325,6.470,10.376
-1.611,1.195,0.812,-38.879,6.897,15.076
-2.060,1.678,0.996,-44.861,-6.470,14.404
-2.168,1.747,1.030,-77.942,-38.696,8.057
-2.184,1.666,0.803,-109.314,-42.114,7.874
-2.051,1.650,0.646,-174.744,-26.978,15.808
-1.559,1.608,0.281,-204.834,-20.203,26.367
-1.377,1.474,0.017,-237.854,-5.676,57.373
-1.091,1.035,-0.607,-201.965,-3.357,54.749
-0.918,0.739,-0.764,-113.159,-27.466,31.677
-0.654,-0.071,-0.648,121.216,-136.414,-30.945
-0.448,-0.444,-0.547,190.735,-132.935,-32.837
0.131,-0.837,-0.286,150.269,-72.083,-2.991
0.326,-1.152,-0.029,102.966,130.554,51.697
0.619,-1.904,0.923,166.260,206.726,0.793
0.865,-1.937,1.743,405.273,130.554,-202.637
1.117,-1.976,2.903,438.415,61.035,-222.778
0.993,-1.920,2.371,186.523,-20.386,-76.294
0.402,-1.195,0.553,89.600,-45.654,-21.912
0.244,-1.021,0.511,190.308,19.348,-62.500
0.354,-1.100,1.719,251.282,90.027,-109.558
0.420,-0.990,2.179,189.575,133.850,-122.375
0.423,-0.350,1.980,107.117,108.215,-93.445
0.317,-0.065,1.706,20.020,37.476,-22.888
-0.036,-0.074,1.461,18.250,11.292,3.113
-0.195,-0.185,1.405,5.493,1.404,23.560
-0.228,-0.330,0.954,-12.085,5.371,25.269
-0.234,-0.367,0.641,-12.756,-31.494,32.166
-0.423,-0.476,0.268,4.761,-57.800,32.410
-0.553,-0.516,0.227,22.888,-50.232,21.790
-0.611,-0.500,0.345,20.203,-16.418,10.742
-0.524,-0.422,0.502,17.822,14.526,-1.648
-0.364,-0.293,0.823,30.334,21.606,-16.907
-0.340,-0.260,0.916,31.433,-4.272,-9.949
-0.375,-0.233,0.896,20.630,-7.385,-2.441
-0.410,-0.240,0.850,1.099,4.089,7.202
-0.476,-0.271,0.735,-1.831,11.902,7.568
-0.485,-0.276,0.704,7.141,6.653,4.761
-0.481,-0.276,0.801,17.273,2.258,1.526
-0.467,-0.283,0.878,26.672,9.216,-4.395
-0.437,-0.254,0.969,23.132,11.658,-3.601
-0.427,-0.231,0.973,11.108,5.127,1.709
-0.427,-0.195,0.941,8.484,-0.977,4.028
-0.444,-0.224,0.925,13.245,-11.047,2.686
-0.481,-0.292,0.898,13.977,-10.315,0.427
-0.486,-0.303,0.899,10.132,-0.366,-6.348
-0.414,-0.264,0.952,6.958,6.104,-10.010
-0.365,-0.234,0.977,3.174,8.911,-10.681
-0.310,-0.194,1.011,3.540,4.761,-8.179
-0.327,-0.208,0.972,4.272,-3.479,-0.854
-0.357,-0.225,0.926,5.737,-5.066,2.014
-0.410,-0.264,0.882,6.897,-4.456,0.793
-0.415,-0.275,0.893,6.470,-2.197,-1.343
-0.377,-0.249,0.924,1.831,3.967,-4.639
-0.351,-0.228,0.924,-0.732,3.052,-2.808
-0.338,-0.203,0.882,-1.587,1.160,0.427
-0.352,-0.202,0.855,0.305,-2.869,6.042
-0.401,-0.225,0.841,1.831,-3.174,7.263
-0.421,-0.231,0.844,1.038,0.549,6.592
-0.430,-0.248,0.848,0.793,2.014,5.737
-0.433,-0.268,0.859,1.587,0.061,3.845
-0.417,-0.271,0.857,0.732,-0.793,2.441
-0.398,-0.250,0.846,0.366,-2.258,1.770
-0.388,-0.229,0.848,2.930,-5.371,2.380
-0.397,-0.233,0.858,7.141,-9.216,3.601
-0.413,-0.244,0.866,5.493,-6.348,4.150
-0.411,-0.246,0.858,1.892,-0.061,4.272
-0.411,-0.264,0.850,1.892,0.549,3.906
-0.414,-0.275,0.850,0.366,3.235,3.357
-0.404,-0.268,0.847,-0.244,4.272,2.808
-0.400,-0.251,0.853,0.671,2.502,2.014
-0.396,-0.255,0.872,1.160,1.526,2.441
-0.400,-0.272,0.870,1.221,-1.648,3.174
-0.430,-0.295,0.836,1.526,-4.089,3.235
-0.440,-0.286,0.815,3.113,-3.784,1.343
-0.437,-0.277,0.820,4.517,-1.160,0.122
-0.427,-0.273,0.855,7.202,3.479,-1.404
-0.419,-0.278,0.873,6.226,6.226,-2.502
-0.414,-0.284,0.891,4.028,6.775,-2.136
-0.410,-0.274,0.886,0.977,6.653,-1.221
-0.419,-0.273,0.856,-2.686,4.211,1.282
-0.427,-0.281,0.856,-2.258,3.845,2.075
-0.429,-0.286,0.869,1.526,4.089,0.061
-0.413,-0.272,0.906,3.052,3.418,-1.282
-0.388,-0.254,0.943,2.869,2.197,-2.136
-0.378,-0.253,0.952,-1.465,0.549,0.671
-0.383,-0.259,0.927,-3.845,-1.831,2.930
-0.397,-0.258,0.892,-5.249,-5.127,4.883
-0.445,-0.282,0.817,-4.089,-9.949,6.836
-0.466,-0.309,0.801,0.977,-7.385,2.319
-0.452,-0.317,0.827,1.892,-3.418,-1.038
-0.425,-0.293,0.848,0.427,1.892,-4.028
-0.376,-0.244,0.884,-0.061,1.221,-3.174
-0.372,-0.239,0.889,0.916,-4.761,1.831
-0.420,-0.267,0.867,1.404,-7.019,3.784
-0.441,-0.283,0.846,0.916,-3.662,2.625
-0.452,-0.284,0.826,1.343,0.366,0.122
-0.439,-0.279,0.840,3.357,6.897,-4.761
-0.397,-0.270,0.897,3.357,8.362,-5.432
-0.384,-0.268,0.916,2.258,4.150,-3.113
-0.374,-0.254,0.912,1.160,0.854,-1.465
-0.377,-0.250,0.893,0.000,-2.991,1.160
-0.405,-0.250,0.859,0.366,-3.540,1.770
-0.417,-0.259,0.855,1.709,-0.977,1.160
-0.418,-0.287,0.875,1.526,1.099,0.244
-0.410,-0.287,0.884,-0.549,2.930,-1.160
-0.395,-0.264,0.890,-1.526,2.808,-1.160
-0.389,-0.255,0.892,-2.625,2.869,-0.244
-0.386,-0.258,0.896,-2.563,2.136,0.610
-0.394,-0.265,0.891,-3.296,-0.366,1.953
-0.411,-0.268,0.874,-4.333,0.427,1.953
-0.406,-0.268,0.870,-5.249,4.089,0.793
-0.390,-0.271,0.864,-4.883,3.723,0.671
-0.389,-0.270,0.858,-3.296,-0.610,1.221
-0.406,-0.264,0.840,-2.136,-1.892,1.648
-0.416,-0.271,0.845,0.366,-0.610,1.221
-0.416,-0.275,0.877,0.122,1.465,0.549
-0.408,-0.268,0.892,-1.892,5.188,-0.305
-0.389,-0.255,0.904,-2.625,5.249,-0.305

-1.058,0.654,0.931,-19.165,-33.081,3.357
-1.109,0.721,0.887,-20.569,-49.744,4.028
-1.156,0.853,0.825,-23.804,-47.302,5.737
-1.120,0.941,0.780,-30.334,-34.058,12.512
-1.097,0.967,0.766,-36.621,-28.809,24.231
-1.099,0.963,0.679,-41.443,-26.855,33.203
-1.126,0.955,0.607,-53.223,-17.273,55.603
-1.248,0.868,0.360,-49.622,-9.827,59.204
-1.340,0.789,0.246,15.869,-24.170,18.311
-1.379,0.550,0.211,70.984,-44.678,-19.165
-1.314,0.391,0.268,151.367,-50.232,-73.425
-1.058,0.092,0.397,156.006,-29.419,-81.909
-0.861,-0.018,0.398,108.704,21.179,-71.289
-0.375,-0.273,0.247,79.651,41.870,-55.115
-0.132,-0.537,0.114,54.443,84.290,-14.648
0.163,-1.391,-0.206,69.519,105.347,-15.930
0.616,-1.734,0.082,184.387,114.868,-127.625
0.963,-1.685,0.546,302.307,117.126,-198.914
1.337,-1.525,1.661,299.438,129.028,-172.974
1.295,-1.415,1.860,249.329,129.395,-124.329
1.114,-1.279,1.759,118.835,18.555,-24.170
0.345,-1.171,1.026,96.558,-54.138,2.686
-0.430,-1.104,0.716,147.949,-113.647,-16.602
-0.517,-1.055,0.850,141.235,4.700,-70.862
-0.063,-0.690,1.181,89.050,92.102,-85.266
0.211,-0.391,1.319,7.202,155.334,-79.102
0.431,0.013,1.526,-1.282,124.878,-57.373
0.367,0.007,1.470,-1.770,18.311,9.094
-0.044,-0.324,1.073,-7.202,-26.367,38.635
-0.286,-0.507,0.844,-27.466,-45.471,62.805
-0.535,-0.727,0.560,-30.273,-33.386,54.687
-0.445,-0.627,0.493,-17.151,-23.437,15.930
-0.367,-0.499,0.504,2.136,-23.865,-10.620
-0.249,-0.296,0.640,8.972,-14.221,-13.550
-0.229,-0.279,0.749,9.644,11.902,-2.319
-0.219,-0.335,0.922,4.700,18.616,5.676
-0.221,-0.350,0.954,-3.601,6.775,14.709
-0.270,-0.330,0.859,-5.188,-2.991,16.357
-0.314,-0.314,0.795,1.282,-10.742,18.677
-0.381,-0.359,0.760,8.301,-9.705,16.785
-0.391,-0.366,0.781,16.602,-11.169,10.986
-0.393,-0.368,0.901,17.029,-11.597,8.362
-0.384,-0.375,0.950,5.127,2.441,6.042
-0.362,-0.345,1.008,-5.615,8.545,7.751
-0.356,-0.330,1.010,-20.508,5.432,15.503
-0.383,-0.321,0.916,-21.912,-1.953,20.020
-0.422,-0.343,0.851,-11.169,-15.930,23.437
-0.500,-0.404,0.803,-2.258,-17.090,19.958
-0.510,-0.411,0.846,6.042,-3.784,4.822
-0.444,-0.387,0.983,1.404,8.484,-2.380
-0.372,-0.357,1.033,-18.005,28.137,-6.226
-0.263,-0.293,1.025,-24.597,25.146,-2.258
-0.315,-0.295,0.920,-19.348,-3.723,9.460
-0.370,-0.330,0.878,-11.475,-15.869,11.780
-0.414,-0.358,0.851,-1.099,-17.090,5.310
-0.419,-0.347,0.845,-1.587,-9.888,0.000
-0.390,-0.324,0.858,-8.301,5.554,-5.188
-0.335,-0.283,0.891,-9.888,8.301,-4.944
-0.360,-0.282,0.863,-7.629,0.305,0.671
-0.392,-0.290,0.851,-4.517,-4.761,3.479
-0.407,-0.288,0.875,0.854,-3.723,0.916
-0.391,-0.276,0.903,1.038,1.465,-2.258
-0.370,-0.263,0.931,-2.197,9.888,-5.798
-0.334,-0.240,0.950,-4.700,10.376,-5.127
-0.325,-0.237,0.901,-6.836,3.052,-1.160
-0.335,-0.248,0.870,0.244,-8.240,0.671
-0.370,-0.273,0.841,3.662,-10.193,-0.305
-0.374,-0.277,0.839,3.357,-2.136,-3.723
-0.349,-0.259,0.861,2.014,3.845,-4.761
-0.327,-0.245,0.886,1.099,8.118,-5.249
-0.303,-0.242,0.924,0.183,7.568,-3.479
-0.305,-0.250,0.927,-0.427,4.456,-1.587
-0.323,-0.252,0.910,-1.038,-0.549,1.282
-0.326,-0.255,0.903,-0.183,-0.244,0.977
-0.327,-0.269,0.896,-0.671,1.221,0.305
-0.326,-0.271,0.898,-0.977,2.869,-1.648
-0.318,-0.267,0.914,-0.183,2.197,-2.441
-0.315,-0.265,0.922,-0.977,2.014,-1.343
-0.313,-0.262,0.919,-2.625,2.563,0.183
-0.315,-0.260,0.909,-4.211,0.977,3.113
-0.324,-0.263,0.883,-2.625,-1.648,3.418
-0.330,-0.267,0.882,0.977,-3.540,2.014
-0.335,-0.281,0.901,0.000,-0.916,1.099
-0.327,-0.275,0.909,-5.249,5.859,0.000
-0.297,-0.248,0.924,-6.226,6.897,0.488
-0.288,-0.251,0.933,-4.700,3.357,3.906
-0.304,-0.277,0.943,-4.456,0.061,5.859
-0.333,-0.296,0.936,-8.789,-3.174,7.812
-0.336,-0.299,0.927,-12.085,-2.136,7.385
-0.324,-0.283,0.914,-16.663,2.625,4.639
-0.313,-0.265,0.914,-17.212,4.089,3.540
-0.301,-0.233,0.885,-16.296,-0.366,5.066
-0.316,-0.245,0.856,-10.925,-12.512,9.583
-0.369,-0.289,0.818,-8.118,-15.320,9.949
-0.388,-0.301,0.813,-7.202,-13.550,8.789
-0.392,-0.302,0.823,-9.766,-1.221,5.188
-0.379,-0.288,0.837,-9.399,7.324,0.977
-0.348,-0.248,0.891,-6.836,7.812,-0.488
-0.338,-0.236,0.926,-3.845,6.409,-0.916
-0.335,-0.230,0.957,-1.892,-0.916,1.404
-0.348,-0.254,0.962,-3.235,-5.310,3.113
-0.363,-0.263,0.896,-6.775,-9.277,5.127
-0.360,-0.259,0.872,-3.845,-6.042,1.648
-0.340,-0.243,0.889,-1.953,-2.625,-0.305
-0.330,-0.239,0.910,-1.953,3.418,-0.061
-0.329,-0.234,0.943,-2.747,3.967,0.854
-0.336,-0.233,0.947,-3.967,0.610,1.160
-0.343,-0.250,0.927,-4.700,-0.610,1.221
-0.347,-0.254,0.907,-5.249,-0.671,0.854
-0.344,-0.235,0.881,-3.662,-0.488,-0.427
-0.335,-0.228,0.885,0.793,0.732,-2.258
-0.323,-0.230,0.908,1.404,2.014,-1.465
-0.325,-0.235,0.917,0.732,2.930,1.343
-0.338,-0.249,0.929,-0.183,2.808,2.319
-0.342,-0.249,0.924,-1.892,1.587,2.258
-0.347,-0.242,0.897,-1.770,0.916,1.465
-0.352,-0.244,0.885,-0.122,1.587,-0.488
-0.350,-0.250,0.885,1.038,2.380,-1.526
-0.342,-0.255,0.898,2.258,4.211,-2.441

-1.094,0.637,1.242,-5.310,0.061,2.014
-1.132,0.705,1.288,-22.644,-21.545,-0.610
-1.182,0.803,1.221,-33.203,-42.542,0.488
-1.216,0.841,1.077,-63.660,-72.144,9.888
-1.226,0.937,0.740,-81.238,-65.247,15.381
-1.199,0.986,0.586,-97.839,-24.475,21.912
-1.167,1.065,0.354,-91.858,-11.658,22.034
-1.204,1.072,0.226,-56.580,-16.541,14.221
-1.156,0.981,0.249,-35.522,-20.325,6.958
-0.887,0.703,0.359,-16.174,-8.972,1.892
-0.782,0.539,0.361,-9.521,8.545,12.085
-0.694,0.018,0.176,9.521,10.132,6.348
-0.700,-0.180,0.027,108.643,-29.419,-57.190
-0.649,-0.408,-0.036,178.284,-47.180,-97.778
-0.437,-0.595,0.150,240.540,47.546,-133.362
0.229,-0.917,0.940,226.013,126.648,-127.991
0.514,-0.954,1.309,182.068,160.645,-86.731
0.624,-1.046,1.428,174.927,115.845,-56.763
0.605,-1.354,1.099,181.335,15.198,-40.588
0.326,-1.607,0.753,188.599,-20.264,-74.768
0.310,-1.435,0.944,201.111,28.198,-141.663
0.648,-1.051,1.462,177.368,78.064,-139.587
0.731,-0.904,1.517,91.675,70.618,-69.580
0.471,-0.803,1.113,63.354,10.437,-31.250
0.186,-0.774,0.811,58.899,-77.087,-0.244
-0.270,-0.641,0.602,78.003,-65.979,-14.404
-0.250,-0.601,0.757,91.003,23.132,-56.091
0.044,-0.456,1.107,70.251,60.181,-59.448
0.167,-0.342,1.165,20.325,68.848,-30.640
0.126,-0.202,1.047,8.118,45.776,-11.841
-0.019,-0.270,0.979,5.554,19.470,5.005
-0.292,-0.530,0.850,-2.502,0.916,21.301
-0.355,-0.559,0.762,-16.602,15.686,3.052
-0.318,-0.421,0.644,-11.719,15.198,-9.094
-0.268,-0.364,0.672,-0.793,9.033,-16.602
-0.165,-0.309,0.829,13.733,2.686,-15.564
-0.169,-0.292,0.876,10.803,0.244,1.404
-0.253,-0.312,0.913,10.437,-5.371,6.531
-0.291,-0.327,0.902,7.874,-8.728,9.521
-0.309,-0.320,0.852,6.592,-5.249,8.240
-0.282,-0.309,0.822,6.226,1.282,6.226
-0.298,-0.329,0.771,9.155,-0.671,8.728
-0.341,-0.360,0.795,18.127,-3.662,10.071
-0.387,-0.418,0.884,15.808,1.709,8.179
-0.376,-0.397,0.902,-0.977,16.479,4.089
-0.323,-0.282,0.945,-2.808,17.456,2.197
-0.310,-0.281,1.011,7.629,8.484,1.465
-0.288,-0.338,1.112,8.240,3.662,0.977
-0.279,-0.323,1.077,0.610,-7.874,0.671
-0.299,-0.280,0.958,2.014,-14.465,1.526
-0.314,-0.307,0.943,8.789,-17.090,-0.061
-0.311,-0.354,0.932,5.676,-10.437,-1.038
-0.294,-0.340,0.915,-4.089,2.197,-1.099
-0.276,-0.304,0.903,-3.601,2.075,-1.526
-0.285,-0.320,0.918,1.282,3.235,-1.282
-0.289,-0.329,0.917,-2.441,9.521,0.305
-0.272,-0.310,0.918,-5.981,8.362,1.709
-0.271,-0.319,0.938,-1.709,1.282,0.671
-0.279,-0.324,0.934,4.395,-7.874,-1.038
-0.276,-0.316,0.917,4.211,-8.545,-1.099
-0.270,-0.306,0.910,0.854,-5.798,0.977
-0.279,-0.313,0.906,-0.916,-3.357,2.258
-0.290,-0.321,0.906,-4.822,2.686,3.540
-0.296,-0.328,0.920,-5.371,4.944,2.625
-0.283,-0.328,0.926,-4.761,5.249,0.488
-0.258,-0.310,0.921,-5.737,3.601,1.160
-0.247,-0.303,0.908,-7.568,-2.441,5.310
-0.262,-0.313,0.833,-7.019,-7.996,8.484
-0.351,-0.352,0.783,-1.282,-17.639,11.658
-0.382,-0.373,0.804,2.075,-15.381,8.911
-0.351,-0.353,0.888,1.282,0.854,-1.160
-0.304,-0.312,0.934,-2.014,8.850,-5.127
-0.228,-0.252,0.977,-7.568,14.404,-4.700
-0.232,-0.254,0.971,-7.080,4.333,2.930
-0.290,-0.297,0.934,-5.859,-0.488,5.127
-0.317,-0.315,0.918,-3.174,-2.686,3.235
-0.313,-0.316,0.931,-1.465,-1.343,-0.244
-0.286,-0.313,0.957,-0.305,2.930,-5.371
-0.232,-0.296,0.997,-2.197,4.211,-5.615
-0.212,-0.281,0.997,-8.911,4.395,-1.221
-0.207,-0.263,0.979,-11.414,2.991,2.502
-0.252,-0.279,0.957,-13.367,-1.465,8.118
-0.272,-0.291,0.944,-16.663,-2.136,9.583
-0.287,-0.306,0.918,-17.700,-2.197,8.850
-0.279,-0.303,0.902,-17.822,-3.662,6.165
-0.256,-0.283,0.843,-16.785,-5.127,5.615
-0.259,-0.268,0.812,-10.681,-7.874,5.737
-0.277,-0.273,0.805,-6.958,-7.019,5.432
-0.290,-0.271,0.824,-5.066,-0.854,5.371
-0.295,-0.268,0.836,-4.761,2.075,5.554
-0.295,-0.269,0.885,-1.587,5.249,3.784
-0.286,-0.263,0.910,1.404,5.920,-0.061
-0.252,-0.242,0.942,1.770,5.676,-0.854
-0.239,-0.237,0.947,1.160,3.357,1.038
-0.246,-0.238,0.934,0.671,0.916,3.174
-0.264,-0.246,0.922,0.183,-2.686,6.592
-0.294,-0.273,0.916,-0.305,-1.221,6.409
-0.291,-0.278,0.922,-1.465,3.906,3.662
-0.274,-0.274,0.929,-0.977,3.601,2.502
-0.267,-0.270,0.931,1.099,-0.061,1.709
-0.257,-0.271,0.939,1.099,-0.488,1.892
-0.255,-0.276,0.938,-2.686,0.610,4.700
-0.262,-0.276,0.924,-4.456,0.305,6.470
-0.275,-0.282,0.908,-4.639,-3.174,7.568
-0.308,-0.298,0.885,-3.845,-3.479,6.592
-0.315,-0.298,0.885,-0.732,0.122,2.441
-0.297,-0.287,0.912,0.977,2.014,0.732
-0.283,-0.277,0.931,1.221,3.723,1.282
-0.272,-0.274,0.945,-0.183,3.052,3.174
-0.283,-0.279,0.936,-2.808,-0.122,5.920
-0.305,-0.287,0.913,-2.808,-0.732,5.859
-0.306,-0.289,0.913,0.610,-0.549,2.502
-0.289,-0.281,0.934,2.930,-0.671,0.427
-0.281,-0.281,0.951,3.296,0.732,-0.732
-0.278,-0.285,0.975,0.732,1.770,0.061
-0.274,-0.279,0.967,-4.395,1.099,1.709
-0.270,-0.279,0.955,-4.333,-3.174,2.991
-0.272,-0.283,0.923,-3.235,-5.249,3.296
-0.275,-0.283,0.913,-0.671,-5.920,2.502

-1.003,0.582,1.131,-25.452,2.197,-8.240
-1.025,0.658,1.102,-29.419,-42.908,-10.620
-1.096,0.776,0.960,-30.884,-62.073,-10.132
-1.158,0.838,0.869,-36.926,-69.946,-5.676
-1.343,0.917,0.695,-41.870,-60.364,-1.648
-1.428,0.904,0.523,-48.279,-34.302,1.099
-1.391,0.913,0.448,-42.603,-26.978,-5.920
-1.297,0.949,0.403,-11.902,-21.606,-25.452
-1.256,0.924,0.429,5.981,-23.376,-32.410
-1.034,0.647,0.505,31.799,-24.597,-39.673
-0.859,0.435,0.554,33.325,-29.114,-20.996
-0.573,-0.309,0.247,30.823,-27.954,-6.958
-0.538,-0.752,-0.022,73.364,8.911,-40.344
-0.111,-1.095,0.158,121.643,53.650,-98.145
0.270,-1.110,0.641,203.125,159.729,-173.035
1.012,-1.073,1.797,201.660,191.345,-157.654
1.150,-1.017,2.010,128.723,94.238,-77.454
0.838,-0.916,1.393,92.590,-5.310,-38.818
0.546,-0.962,0.837,60.242,-94.910,9.766
0.101,-1.112,0.337,84.045,-64.941,-4.395
0.082,-1.128,0.610,167.847,31.494,-83.374
0.244,-0.979,1.329,168.030,62.561,-98.877
0.274,-0.901,1.437,77.576,48.584,-58.167
0.183,-0.703,0.976,27.832,17.700,-33.020
0.101,-0.555,0.720,14.038,-3.906,-19.714
0.023,-0.432,0.756,38.269,14.343,-26.184
0.025,-0.448,0.931,59.692,52.795,-31.555
0.017,-0.520,1.050,49.866,53.772,-24.963
-0.014,-0.540,0.970,16.846,27.710,-10.803
-0.130,-0.403,0.706,4.272,15.442,-3.479
-0.214,-0.353,0.620,0.916,6.165,4.944
-0.287,-0.354,0.596,17.395,5.676,7.019
-0.357,-0.380,0.813,26.794,16.724,-2.014
-0.223,-0.403,1.151,25.330,48.401,-17.944
-0.101,-0.354,1.266,-2.686,52.795,-18.616
0.060,-0.195,1.165,-14.282,36.926,-8.484
-0.013,-0.174,0.982,-13.062,-22.705,24.292
-0.281,-0.277,0.714,-2.869,-44.434,30.884
-0.359,-0.335,0.649,15.930,-44.006,21.301
-0.411,-0.375,0.695,21.484,-30.823,12.939
-0.390,-0.388,0.785,19.897,-0.977,-0.305
-0.315,-0.360,0.937,12.329,9.521,-2.930
-0.273,-0.308,0.968,-1.953,14.832,-1.770
-0.259,-0.259,0.982,-3.174,11.658,2.502
-0.287,-0.279,0.982,1.099,1.221,8.240
-0.337,-0.312,0.931,2.686,-3.540,7.629
-0.361,-0.320,0.900,8.789,-10.071,2.441
-0.371,-0.338,0.937,12.756,-9.888,-3.418
-0.332,-0.337,0.983,10.071,0.732,-12.390
-0.225,-0.298,1.007,2.808,8.118,-12.512
-0.180,-0.254,0.961,-9.338,8.484,-2.686
-0.211,-0.218,0.923,-6.531,0.000,2.441
-0.258,-0.246,0.920,3.296,-3.784,4.211
-0.294,-0.301,0.950,4.395,1.221,2.258
-0.278,-0.312,0.959,-1.404,9.521,-0.183
-0.238,-0.299,0.942,-5.188,8.789,0.061
-0.254,-0.281,0.903,-5.371,0.793,3.113
-0.269,-0.285,0.893,-1.343,-4.028,3.601
-0.278,-0.286,0.891,5.371,-6.653,1.343
-0.278,-0.285,0.898,6.104,-4.333,0.488
-0.275,-0.282,0.908,1.648,3.601,0.183
-0.267,-0.276,0.906,-1.343,7.019,1.221
-0.270,-0.278,0.905,-1.038,5.554,1.953
-0.274,-0.290,0.911,0.427,2.930,1.282
-0.280,-0.288,0.902,2.136,-0.183,0.732
-0.276,-0.283,0.896,2.991,-1.465,0.305
-0.283,-0.283,0.895,4.761,-3.052,0.488
-0.296,-0.291,0.901,4.211,-1.465,0.916
-0.298,-0.294,0.917,2.869,0.732,0.549
-0.286,-0.295,0.924,0.732,5.371,-0.183
-0.259,-0.287,0.939,0.854,6.104,-0.977
-0.248,-0.286,0.948,1.343,3.540,-2.136
-0.242,-0.286,0.946,0.671,1.221,-1.343
-0.243,-0.276,0.936,-1.038,-1.465,1.343
-0.253,-0.279,0.916,-0.488,-3.174,2.747
-0.266,-0.295,0.905,1.343,-5.920,4.089
-0.293,-0.311,0.879,1.587,-5.127,3.601
-0.292,-0.308,0.877,2.747,-0.305,0.122
-0.269,-0.290,0.903,3.845,2.014,-1.526
-0.258,-0.288,0.922,3.967,5.432,-1.953
-0.246,-0.289,0.937,2.197,6.042,-0.916
-0.248,-0.280,0.938,-0.183,3.418,1.038
-0.254,-0.284,0.939,0.183,1.526,1.526
-0.261,-0.294,0.920,-0.122,-0.366,2.808
-0.267,-0.295,0.903,0.549,-1.099,3.296
-0.277,-0.302,0.900,2.441,-0.916,2.136
-0.269,-0.309,0.918,3.906,1.282,-0.183
-0.254,-0.310,0.943,2.441,2.563,-0.488
-0.248,-0.299,0.940,-1.770,4.089,0.305
-0.234,-0.280,0.920,-3.052,4.333,1.343
-0.233,-0.282,0.907,-1.770,0.916,4.333
-0.270,-0.315,0.891,0.977,-3.174,4.883
-0.292,-0.322,0.891,5.432,-7.263,0.549
-0.296,-0.327,0.886,6.592,-5.554,-3.235
-0.282,-0.330,0.903,5.371,1.770,-4.150
-0.254,-0.305,0.945,2.686,5.249,-2.502
-0.239,-0.297,0.962,-1.099,7.751,-0.549
-0.217,-0.303,0.997,-2.197,6.958,0.305
-0.219,-0.307,1.006,-5.859,4.028,2.625
-0.226,-0.304,0.984,-8.484,2.930,3.723
-0.226,-0.296,0.963,-11.108,1.099,5.676
-0.236,-0.295,0.945,-9.644,-0.854,5.920
-0.243,-0.312,0.955,-6.287,-3.723,5.310
-0.258,-0.324,0.973,-7.812,-2.869,5.188
-0.260,-0.317,0.969,-14.282,0.549,4.944
-0.251,-0.305,0.962,-17.212,1.587,5.066
-0.252,-0.292,0.958,-21.240,2.686,7.141
-0.256,-0.290,0.943,-21.790,2.625,8.240
-0.255,-0.299,0.935,-20.630,1.343,8.911
-0.252,-0.289,0.922,-19.714,0.488,8.362
-0.252,-0.282,0.921,-16.663,-1.465,7.019
-0.250,-0.290,0.937,-15.564,-1.953,6.775
-0.247,-0.300,0.946,-17.151,-1.587,6.531
-0.229,-0.304,0.948,-19.592,-0.671,6.042
-0.218,-0.293,0.941,-23.926,1.648,5.737
-0.203,-0.260,0.935,-24.536,1.648,6.409
-0.202,-0.256,0.939,-22.705,-1.892,7.629
-0.206,-0.273,0.954,-22.034,-4.761,8.484
-0.211,-0.285,0.951,-25.940,-8.362,11.108

-1.104,0.761,0.679,-32.776,-44.678,8.728
-1.078,0.796,0.676,-41.565,4.089,23.010
-1.109,0.818,0.599,-42.847,12.085,32.532
-1.172,0.773,0.544,-25.757,2.441,41.321
-1.382,0.600,0.433,-7.751,-3.418,32.288
-1.455,0.460,0.366,29.663,4.883,-5.188
-1.392,0.413,0.359,45.837,9.338,-24.414
-1.157,0.249,0.259,63.293,-9.827,-40.039
-1.035,0.033,0.115,61.279,-15.991,-30.518
-0.927,-0.391,-0.081,45.776,42.908,-15.137
-0.517,-1.379,-0.113,56.641,105.164,-54.932
-0.062,-1.441,0.307,172.241,189.209,-207.520
0.967,-1.133,1.497,233.887,188.232,-241.821
1.263,-0.919,1.626,183.594,90.942,-148.743
1.108,-0.856,1.041,107.971,1.892,-69.336
0.841,-0.936,0.386,78.796,-91.003,30.884
0.140,-1.589,0.313,150.269,-56.274,10.925
0.000,-1.742,0.983,266.663,62.073,-130.310
0.314,-1.366,1.865,217.407,89.783,-152.893
0.493,-0.943,1.677,28.870,55.054,-80.872
0.522,-0.197,0.891,-0.183,21.667,-46.021
0.169,-0.158,1.028,57.556,-5.981,-17.334
0.056,-0.326,1.227,42.847,38.879,-8.301
-0.000,-0.374,1.236,4.639,52.734,-1.221
-0.014,-0.336,1.070,-21.606,44.312,7.568
-0.232,-0.390,0.820,-10.132,-16.785,26.184
-0.377,-0.473,0.773,8.240,-36.743,30.090
-0.466,-0.530,0.694,-2.014,-18.799,26.489
-0.404,-0.458,0.636,-18.372,7.324,13.977
-0.349,-0.336,0.538,-9.888,0.977,10.803
-0.435,-0.372,0.542,19.653,-16.052,11.108
-0.598,-0.497,0.698,23.254,-7.324,7.751
-0.569,-0.466,0.809,1.221,35.889,-3.540
-0.359,-0.256,0.992,-6.287,46.753,-7.080
-0.281,-0.209,1.064,2.563,28.809,-3.235
-0.256,-0.259,1.072,6.714,12.329,3.296
-0.298,-0.287,0.989,5.554,-13.489,16.113
-0.418,-0.326,0.816,7.019,-20.264,18.982
-0.464,-0.342,0.789,13.611,-17.029,12.146
-0.489,-0.375,0.836,12.207,-5.981,7.690
-0.479,-0.374,0.880,3.174,13.428,2.380
-0.423,-0.353,0.935,-0.122,14.893,0.671
-0.407,-0.334,0.921,-3.906,7.080,2.563
-0.413,-0.311,0.861,-3.540,4.761,3.662
-0.412,-0.306,0.854,1.282,7.690,0.793
-0.384,-0.314,0.911,4.700,8.850,-2.808
-0.354,-0.308,0.954,7.019,7.690,-9.399
-0.288,-0.284,0.997,5.188,7.202,-9.949
-0.266,-0.273,0.994,-1.465,5.127,-4.211
-0.270,-0.257,0.939,-4.456,2.930,-0.244
-0.292,-0.263,0.903,-8.667,2.380,6.897
-0.347,-0.306,0.837,-8.362,3.601,8.423
-0.369,-0.329,0.824,-1.404,3.601,4.944
-0.378,-0.343,0.835,1.831,2.808,1.160
-0.366,-0.325,0.851,3.906,3.174,-4.639
-0.322,-0.282,0.893,2.502,5.249,-4.822
-0.303,-0.266,0.911,-3.601,10.071,-0.183
-0.302,-0.258,0.907,-6.165,9.949,3.174
-0.363,-0.295,0.851,-7.446,4.456,8.972
-0.403,-0.309,0.825,-5.615,1.160,9.521
-0.428,-0.319,0.816,1.831,-0.854,3.662
-0.416,-0.328,0.845,4.578,1.099,-0.244
-0.389,-0.324,0.872,4.333,8.911,-5.981
-0.296,-0.274,0.927,1.282,13.123,-6.653
-0.255,-0.240,0.943,-4.578,14.038,-1.831
-0.249,-0.233,0.935,-5.615,9.766,2.991
-0.286,-0.251,0.923,-4.028,0.061,10.986
-0.350,-0.298,0.919,-1.770,-2.075,10.620
-0.353,-0.314,0.921,0.488,-1.343,4.028
-0.327,-0.293,0.917,0.305,-0.732,1.587
-0.315,-0.284,0.918,0.061,-0.671,-1.221
-0.296,-0.284,0.948,-0.488,-0.427,-1.343
-0.278,-0.280,0.969,-3.906,0.427,0.549
-0.276,-0.275,0.954,-6.348,-0.061,2.197
-0.303,-0.260,0.895,-9.033,-2.991,5.615
-0.325,-0.271,0.875,-7.263,-4.272,6.348
-0.362,-0.307,0.874,-2.075,-3.357,4.272
-0.361,-0.314,0.881,-1.953,1.526,0.000
-0.323,-0.295,0.884,-3.357,3.296,-1.343
-0.303,-0.276,0.879,-5.005,2.319,-0.488
-0.293,-0.244,0.863,-3.296,-0.671,1.038
-0.308,-0.247,0.855,3.174,-7.202,3.113
-0.351,-0.274,0.849,5.493,-7.568,2.258
-0.358,-0.294,0.857,5.188,0.305,-2.014
-0.332,-0.285,0.893,2.197,5.920,-2.930
-0.309,-0.266,0.910,-1.221,10.071,-3.235
-0.277,-0.251,0.940,-0.061,7.751,-2.441
-0.277,-0.272,0.946,1.831,1.587,0.610
-0.283,-0.282,0.940,1.282,0.244,2.075
-0.289,-0.294,0.936,-1.465,1.831,2.747
-0.294,-0.298,0.936,-4.333,4.517,2.197
-0.289,-0.290,0.936,-9.644,10.132,1.953
-0.272,-0.289,0.946,-9.766,10.498,2.441
-0.271,-0.295,0.965,-8.972,7.019,4.272
-0.268,-0.321,1.005,-10.864,5.737,4.822
-0.259,-0.328,1.014,-19.409,3.784,6.836
-0.245,-0.292,0.987,-24.841,1.892,7.996
-0.240,-0.269,0.953,-30.273,-3.296,12.634
-0.267,-0.254,0.913,-28.564,-7.263,15.503
-0.340,-0.296,0.900,-24.902,-13.062,17.883
-0.367,-0.307,0.887,-26.672,-11.658,17.883
-0.363,-0.290,0.845,-32.471,-3.357,15.198
-0.347,-0.271,0.831,-32.104,-1.160,12.939
-0.335,-0.250,0.826,-25.085,-2.991,9.155
-0.325,-0.231,0.843,-20.874,-4.333,8.179
-0.320,-0.249,0.887,-15.442,-5.676,7.324
-0.318,-0.263,0.911,-13.916,-4.089,6.775
-0.301,-0.303,0.966,-14.893,-1.160,5.798
-0.279,-0.303,0.988,-23.010,7.568,3.052
-0.221,-0.244,0.988,-27.283,8.362,3.052
-0.208,-0.209,0.982,-28.137,4.639,4.272
-0.213,-0.198,0.981,-20.935,-10.742,8.423
-0.275,-0.251,0.988,-18.921,-16.602,10.620
-0.340,-0.318,1.002,-25.940,-13.672,11.719
-0.340,-0.324,0.999,-42.847,0.854,7.996
-0.266,-0.245,0.957,-50.232,5.859,6.592
-0.224,-0.183,0.933,-48.279,-2.441,7.629
-0.207,-0.119,0.921,-40.527,-13.672,9.521
-0.233,-0.134,0.925,-31.250,-30.029,14.709

-0.965,0.628,0.885,-32.166,-28.442,7.324
-1.012,0.614,0.772,-38.696,-40.833,14.465
-1.145,0.572,0.471,-28.503,-51.514,7.324
-1.201,0.492,0.254,5.493,-51.575,-21.790
-1.182,0.455,0.194,22.583,-10.315,-38.818
-1.009,0.382,0.093,22.095,19.043,-43.518
-0.888,0.317,0.027,23.926,44.373,-46.753
-0.791,0.247,-0.023,46.814,65.674,-50.781
-0.713,-0.051,-0.155,68.115,64.575,-58.228
-0.546,-0.382,-0.165,135.498,49.988,-103.027
-0.358,-0.581,-0.063,195.068,75.073,-138.245
0.326,-1.012,0.544,195.984,128.967,-134.521
0.759,-1.113,0.915,148.804,202.881,-82.886
1.099,-1.237,1.265,134.644,164.734,-46.631
0.879,-1.382,1.191,148.865,78.796,-28.687
0.151,-1.519,0.949,246.155,-105.286,-81.604
-0.114,-1.494,0.914,259.216,-91.248,-121.277
-0.138,-1.385,0.861,205.322,-11.780,-107.178
0.011,-1.252,0.836,116.821,119.690,-87.524
0.280,-0.879,1.263,109.741,121.216,-90.820
0.340,-0.675,1.531,107.544,107.666,-93.445
0.406,-0.296,1.801,70.251,96.985,-79.773
0.454,-0.163,1.786,37.842,95.093,-62.012
0.425,-0.111,1.444,-19.104,60.669,-10.193
0.235,-0.217,1.167,-27.649,-21.179,47.546
-0.333,-0.605,0.733,-11.963,-58.105,60.059
-0.536,-0.754,0.642,10.132,-62.012,32.349
-0.516,-0.666,0.654,4.272,-32.837,7.751
-0.355,-0.508,0.695,-14.526,17.029,-15.747
-0.115,-0.297,0.683,-14.526,14.771,-10.376
-0.149,-0.289,0.679,9.460,-26.428,12.146
-0.344,-0.401,0.746,19.165,-36.865,16.785
-0.400,-0.449,0.779,14.526,-17.212,12.390
-0.369,-0.439,0.838,7.874,-2.625,6.470
-0.311,-0.401,0.856,4.456,6.104,-2.869
-0.248,-0.342,0.871,6.592,2.625,-3.174
-0.248,-0.334,0.875,6.348,0.000,2.563
-0.294,-0.349,0.863,3.906,2.319,6.165
-0.327,-0.350,0.856,5.066,2.869,7.324
-0.374,-0.348,0.889,8.057,1.709,4.883
-0.362,-0.360,0.949,7.263,8.362,0.488
-0.346,-0.353,0.973,3.723,12.939,-0.427
-0.329,-0.341,0.987,-3.784,14.648,0.183
-0.307,-0.327,0.980,-5.981,11.841,1.648
-0.309,-0.336,0.963,-5.066,4.639,3.357
-0.314,-0.341,0.946,-3.174,2.319,2.747
-0.300,-0.320,0.948,1.099,-0.854,-1.831
-0.279,-0.320,0.958,1.587,-0.854,-3.723
-0.259,-0.339,0.940,-0.122,-1.343,-1.709
-0.277,-0.343,0.915,-3.662,-3.601,2.930
-0.314,-0.344,0.866,-5.005,-1.648,3.357
-0.319,-0.336,0.863,-4.150,6.775,0.671
-0.296,-0.329,0.912,-1.526,9.644,-1.892
-0.277,-0.325,0.936,1.953,9.277,-4.089
-0.257,-0.315,0.953,1.404,6.836,-3.418
-0.258,-0.314,0.943,-4.395,1.587,1.221
-0.300,-0.307,0.885,-6.165,-1.587,4.395
-0.328,-0.312,0.865,-0.122,-8.118,4.028
-0.347,-0.342,0.886,3.174,-7.507,0.977
-0.332,-0.342,0.906,1.099,1.770,-2.625
-0.283,-0.313,0.916,-2.380,6.226,-2.502
-0.257,-0.294,0.918,-6.287,7.812,0.549
-0.261,-0.308,0.917,-5.371,4.456,2.441
-0.296,-0.354,0.877,-3.174,-5.249,5.371
-0.320,-0.359,0.844,-2.869,-8.789,5.432
-0.328,-0.328,0.821,-2.991,-5.981,1.526
-0.305,-0.321,0.846,-2.686,6.287,-3.113
-0.246,-0.321,0.922,-3.662,10.437,-3.479
-0.222,-0.314,0.942,-7.507,9.277,-0.183
-0.232,-0.306,0.901,-10.193,5.615,3.784
-0.262,-0.304,0.862,-10.437,-0.244,9.216
-0.296,-0.319,0.830,-6.714,-0.854,8.240
-0.299,-0.322,0.848,1.648,-0.793,3.235
-0.298,-0.328,0.911,3.601,-0.671,1.160
-0.291,-0.331,0.932,0.122,2.075,0.488
-0.265,-0.304,0.942,-2.808,3.113,1.160
-0.260,-0.291,0.931,-5.920,2.136,3.967
-0.272,-0.282,0.901,-5.615,1.038,5.310
-0.280,-0.289,0.895,-1.770,-0.671,6.104
-0.287,-0.311,0.914,-0.732,-0.305,6.348
-0.288,-0.328,0.940,-2.197,1.587,5.798
-0.280,-0.326,0.950,-6.226,4.761,3.357
-0.244,-0.312,0.963,-7.996,5.615,2.930
-0.232,-0.307,0.959,-11.780,5.493,5.066
-0.227,-0.295,0.953,-13.367,5.554,6.653
-0.230,-0.291,0.955,-14.832,5.127,9.216
-0.236,-0.302,0.963,-15.076,4.578,10.376
-0.240,-0.318,0.965,-15.686,4.211,11.230
-0.243,-0.344,0.963,-16.785,3.601,10.437
-0.236,-0.339,0.956,-19.592,-0.549,8.667
-0.217,-0.301,0.927,-20.325,-3.479,9.155
-0.210,-0.294,0.918,-18.982,-8.362,11.902
-0.222,-0.313,0.933,-19.043,-9.094,13.672
-0.238,-0.326,0.938,-24.780,-6.531,16.479
-0.277,-0.305,0.907,-28.564,-4.761,16.968
-0.285,-0.285,0.881,-29.541,-4.272,16.968
-0.300,-0.282,0.862,-26.672,-5.676,16.785
-0.314,-0.290,0.863,-21.912,-7.935,16.479
-0.334,-0.305,0.860,-21.606,-7.080,15.747
-0.319,-0.264,0.849,-21.851,-2.686,12.512
-0.302,-0.247,0.857,-19.043,-2.319,10.376
-0.277,-0.263,0.916,-10.193,-5.371,7.812
-0.269,-0.275,0.952,-9.766,-6.226,8.057
-0.269,-0.250,0.967,-12.878,-7.141,9.216
-0.281,-0.242,0.950,-15.747,-10.193,12.146
-0.306,-0.277,0.955,-13.855,-10.193,11.658
-0.308,-0.312,0.989,-11.902,-4.761,6.470
-0.273,-0.345,1.068,-15.808,0.549,3.967
-0.236,-0.318,1.080,-33.325,10.986,3.296
-0.174,-0.184,1.026,-40.283,10.254,6.531
-0.176,-0.159,0.981,-37.720,-7.324,16.907
-0.256,-0.220,0.925,-32.410,-15.930,20.508
-0.308,-0.264,0.918,-27.100,-16.541,18.799
-0.354,-0.273,0.914,-29.419,-9.705,14.404
-0.329,-0.224,0.901,-35.828,4.822,5.798
-0.258,-0.120,0.867,-34.424,5.859,4.578
-0.271,-0.107,0.873,-23.315,-2.747,7.324
-0.305,-0.118,0.881,-17.517,-8.301,12.024
-0.353,-0.149,0.862,-16.907,-9.338,13.000

-1.137,0.373,1.186,9.705,-33.630,6.409
-1.208,0.444,1.249,-1.099,-62.012,-1.343
-1.252,0.568,1.282,-9.766,-78.674,-5.249
-1.261,0.620,1.245,-29.419,-119.202,-4.883
-1.278,0.742,1.085,-39.124,-137.939,-1.648
-1.281,0.822,0.973,-65.125,-140.259,9.094
-1.262,0.970,0.710,-81.848,-118.835,17.517
-1.265,1.023,0.574,-103.088,-65.918,36.743
-1.451,0.921,0.236,-94.727,-51.758,36.438
-1.542,0.848,0.054,-41.626,-44.434,-12.207
-1.506,0.722,-0.153,-2.319,-40.649,-47.302
-1.380,0.579,-0.164,66.406,-13.672,-102.722
-0.891,0.294,-0.165,79.102,13.611,-117.004
-0.568,0.209,-0.150,85.815,67.932,-105.286
0.054,-0.137,-0.056,92.285,84.045,-79.407
0.373,-1.163,0.002,114.075,116.760,-15.991
0.540,-1.632,0.189,130.005,146.179,-13.062
0.743,-1.851,0.482,199.524,141.174,-103.577
1.014,-1.796,1.130,245.178,90.698,-147.217
1.069,-1.756,1.303,242.737,24.170,-128.479
0.979,-1.775,1.029,200.256,30.334,-83.191
0.569,-1.674,1.110,185.608,48.035,-39.368
0.303,-1.633,1.518,225.830,60.181,-84.595
0.085,-1.259,1.874,187.927,66.711,-106.018
0.197,-0.814,1.749,120.789,78.308,-113.953
0.448,-0.297,1.585,8.789,119.019,-103.943
0.775,0.400,1.430,-8.484,118.835,-78.552
0.646,0.372,1.390,1.587,46.021,9.827
0.000,-0.228,1.166,12.085,-10.803,51.880
-0.375,-0.565,0.961,20.752,-87.952,73.425
-0.822,-0.886,0.547,12.146,-87.280,54.687
-0.815,-0.825,0.419,-12.329,-24.048,1.770
-0.469,-0.522,0.435,-9.888,7.080,-20.142
-0.285,-0.412,0.533,21.606,14.343,-33.691
-0.166,-0.320,0.814,37.048,0.732,-28.259
-0.175,-0.339,0.942,39.856,-11.841,-12.451
-0.198,-0.348,1.028,24.170,-6.653,-2.808
-0.209,-0.302,0.932,-2.625,-0.732,11.047
-0.230,-0.323,0.901,0.244,-7.019,12.634
-0.285,-0.401,0.916,15.808,-14.404,8.972
-0.287,-0.419,0.946,17.334,-8.972,5.371
-0.226,-0.379,1.000,2.380,9.094,0.244
-0.193,-0.323,1.008,-7.812,13.184,1.953
-0.237,-0.315,0.978,-15.503,0.000,12.634
-0.301,-0.354,0.965,-15.747,-10.315,23.987
-0.372,-0.395,0.978,-17.761,-5.005,24.231
-0.356,-0.386,1.006,-23.499,11.658,13.794
-0.245,-0.328,1.052,-26.306,16.846,7.812
-0.187,-0.291,1.038,-28.015,16.479,5.005
-0.186,-0.273,0.949,-25.757,-2.686,12.390
-0.236,-0.275,0.900,-22.400,-19.165,21.423
-0.323,-0.294,0.844,-20.386,-18.860,21.362
-0.346,-0.305,0.846,-19.531,-3.784,14.709
-0.335,-0.303,0.888,-19.531,4.822,10.376
-0.307,-0.311,0.910,-18.433,8.911,6.409
-0.265,-0.294,0.890,-18.921,5.005,3.967
-0.260,-0.272,0.851,-16.296,-2.197,6.409
-0.263,-0.233,0.825,-11.047,-5.066,7.507
-0.269,-0.233,0.850,1.587,-8.057,7.751
-0.305,-0.290,0.931,5.066,-7.446,8.118
-0.325,-0.322,0.965,-0.549,-1.465,7.080
-0.310,-0.322,0.993,-8.484,3.662,5.615
-0.285,-0.286,0.987,-19.287,7.385,4.700
-0.255,-0.242,0.958,-19.226,4.089,5.554
-0.262,-0.237,0.941,-15.686,-5.005,9.460
-0.313,-0.259,0.901,-14.465,-7.568,10.803
-0.341,-0.286,0.893,-14.709,-4.272,9.216
-0.332,-0.287,0.894,-18.311,3.052,4.456
-0.285,-0.268,0.893,-20.386,6.104,2.319
-0.256,-0.251,0.896,-22.156,8.606,1.038
-0.203,-0.205,0.905,-22.705,9.705,1.831
-0.189,-0.195,0.916,-17.212,4.517,6.226
-0.200,-0.222,0.952,-14.221,1.038,8.667
-0.223,-0.251,0.965,-15.076,-2.625,11.841
-0.261,-0.267,0.964,-19.226,-1.953,11.475
-0.262,-0.255,0.948,-25.391,-0.549,8.728
-0.245,-0.249,0.933,-25.024,-1.343,7.751
-0.234,-0.262,0.947,-22.400,-3.296,6.592
-0.212,-0.281,1.007,-22.827,-3.235,6.836
-0.195,-0.280,1.030,-28.992,-3.723,7.751
-0.163,-0.260,1.031,-32.410,-7.385,9.033
-0.169,-0.251,1.015,-37.415,-17.822,12.085
-0.202,-0.229,0.979,-41.443,-18.799,13.733
-0.205,-0.231,0.972,-48.889,-13.794,17.456
-0.212,-0.284,0.989,-49.744,-12.512,18.188
-0.226,-0.302,1.010,-50.903,-14.526,15.076
-0.226,-0.278,1.023,-53.040,-16.602,12.024
-0.195,-0.221,0.978,-58.716,-21.790,9.033
-0.187,-0.192,0.951,-61.829,-23.926,10.071
-0.191,-0.168,0.927,-63.660,-26.184,13.184
-0.211,-0.178,0.909,-61.340,-25.146,14.160
-0.224,-0.209,0.955,-59.082,-15.442,14.587
-0.219,-0.167,0.981,-62.012,-10.986,13.977
-0.194,-0.036,0.983,-72.266,-12.878,16.663
-0.192,-0.013,0.959,-72.449,-23.621,26.672
-0.241,-0.083,0.941,-65.674,-29.968,29.053
-0.270,-0.129,0.953,-52.979,-35.522,24.475
-0.314,-0.128,0.973,-51.941,-33.508,21.973
-0.322,-0.082,0.962,-59.143,-27.100,20.935
-0.325,0.033,0.908,-62.317,-26.062,21.301
-0.314,0.078,0.890,-62.256,-25.269,21.606
-0.297,0.082,0.877,-59.814,-23.376,22.705
-0.320,0.045,0.881,-49.194,-20.386,21.423
-0.372,-0.019,0.896,-44.189,-19.775,18.066
-0.387,-0.008,0.895,-44.922,-13.245,14.099
-0.371,0.083,0.863,-49.744,-7.812,15.137
-0.345,0.134,0.826,-60.059,-1.221,23.132
-0.333,0.209,0.739,-60.974,-0.366,28.625
-0.367,0.208,0.732,-44.312,-4.944,30.579
-0.465,0.161,0.796,-30.090,-12.268,25.085
-0.500,0.129,0.833,-9.460,-29.114,13.367
-0.554,0.044,0.874,-8.850,-33.081,11.902
-0.571,0.043,0.863,-29.175,-24.658,14.648
-0.553,0.151,0.778,-42.175,-12.268,16.724
-0.522,0.224,0.740,-49.377,11.169,16.785
-0.474,0.291,0.725,-41.443,13.428,14.160
-0.472,0.275,0.746,-17.761,2.563,6.409
-0.486,0.221,0.822,-9.766,-2.502,4.822
-0.498,0.186,0.857,-9.277,-4.456,8.240

-0.963,0.824,1.240,-2.258,-28.137,-12.085
-1.068,0.973,1.289,-0.305,-76.843,-12.207
-1.250,1.188,1.272,-8.545,-103.271,-6.592
-1.390,1.167,1.022,-30.396,-151.123,16.052
-1.432,1.120,0.795,-47.363,-176.636,29.419
-1.530,1.092,0.385,-45.471,-175.049,27.161
-1.557,1.077,0.257,-22.644,-141.479,6.531
-1.487,0.870,0.038,-10.559,-110.962,-3.784
-1.364,0.694,-0.028,3.601,-33.630,-17.944
-0.907,0.365,-0.050,4.028,3.906,-19.714
-0.676,0.160,-0.053,10.315,60.547,-8.545
-0.362,-0.531,-0.196,32.776,71.594,-11.414
-0.266,-0.824,-0.226,140.564,46.448,-83.130
0.038,-1.087,0.081,198.975,43.579,-120.117
0.301,-1.189,0.389,200.012,126.892,-94.910
0.953,-1.289,1.080,148.987,177.795,-48.157
1.210,-1.728,1.383,97.046,174.805,34.241
0.964,-1.930,1.297,128.662,125.244,22.461
0.601,-1.911,1.355,270.569,-4.761,-113.586
0.263,-1.687,1.753,283.081,0.183,-154.785
0.308,-1.486,1.793,125.000,113.892,-129.089
0.573,-0.626,1.408,45.471,138.367,-110.718
0.680,-0.145,1.205,12.268,97.168,-81.604
0.498,0.238,1.211,38.635,60.364,-59.082
0.048,-0.157,1.361,58.716,17.944,-10.254
-0.115,-0.312,1.302,32.959,18.433,7.141
-0.205,-0.384,1.143,-12.817,11.597,19.592
-0.307,-0.448,0.839,-10.193,-5.005,19.226
-0.317,-0.475,0.807,10.010,-24.048,7.263
-0.276,-0.450,0.779,3.418,-14.038,0.671
-0.229,-0.354,0.638,-1.038,-11.719,2.869
-0.256,-0.326,0.620,9.216,-11.230,7.446
-0.341,-0.370,0.790,15.015,-6.226,6.104
-0.333,-0.370,0.867,13.245,3.113,1.404
-0.275,-0.265,0.906,-0.305,18.311,-5.676
-0.268,-0.236,0.941,8.606,9.827,-5.737
-0.265,-0.260,1.012,11.292,4.639,-3.052
-0.277,-0.270,0.991,-1.221,1.526,7.935
-0.337,-0.278,0.875,-5.798,1.587,10.925
-0.378,-0.300,0.860,0.671,5.737,7.385
-0.411,-0.343,0.989,6.714,7.263,0.793
-0.365,-0.318,1.045,4.028,8.606,-9.888
-0.241,-0.209,0.989,-2.686,7.080,-7.263
-0.232,-0.183,0.923,-6.165,-4.517,6.775
-0.326,-0.237,0.865,-4.150,-8.789,11.414
-0.388,-0.279,0.881,1.099,-7.874,6.958
-0.393,-0.314,0.952,1.343,-3.784,-1.587
-0.338,-0.277,0.958,-3.113,5.493,-13.306
-0.215,-0.202,0.962,-3.723,7.996,-13.550
-0.172,-0.179,0.967,-6.653,9.460,-4.761
-0.174,-0.160,0.953,-7.446,6.653,1.892
-0.215,-0.181,0.935,-2.563,-4.272,10.010
-0.307,-0.243,0.923,0.366,-6.958,10.071
-0.318,-0.256,0.925,2.747,-6.042,3.540
-0.313,-0.245,0.914,2.502,-5.859,0.549
-0.313,-0.240,0.908,1.953,-4.211,-1.953
-0.292,-0.233,0.944,1.099,-1.770,-2.747
-0.275,-0.218,0.959,-2.258,0.183,-1.648
-0.273,-0.192,0.942,-3.174,-1.038,0.122
-0.305,-0.210,0.898,-2.930,-1.953,3.296
-0.325,-0.228,0.882,-2.014,-1.709,3.906
-0.345,-0.241,0.886,2.869,-1.404,0.671
-0.341,-0.253,0.944,4.028,0.610,-2.930
-0.309,-0.243,0.954,-0.732,5.310,-6.592
-0.252,-0.191,0.933,-2.258,3.845,-4.822
-0.277,-0.205,0.905,-0.977,-2.441,1.770
-0.303,-0.225,0.910,1.465,-3.540,3.174
-0.311,-0.244,0.934,3.113,-3.845,0.732
-0.298,-0.240,0.941,3.113,-4.028,-2.930
-0.266,-0.224,0.922,1.099,-3.235,-2.991
-0.257,-0.215,0.912,-1.282,-2.441,-1.709
-0.252,-0.217,0.910,-0.366,-3.418,-1.770
-0.261,-0.217,0.914,3.784,-7.568,-2.380
-0.289,-0.237,0.938,5.310,-8.545,-3.479
-0.295,-0.245,0.939,1.709,-6.653,-5.432
-0.292,-0.230,0.903,-1.465,-4.517,-4.700
-0.287,-0.218,0.897,-1.587,-1.831,-1.709
-0.283,-0.218,0.931,-0.305,-1.465,-0.305
-0.287,-0.224,0.945,-1.160,-1.282,2.319
-0.294,-0.226,0.935,-1.831,-1.709,2.869
-0.293,-0.227,0.915,-0.549,-5.005,4.211
-0.325,-0.254,0.883,1.038,-6.958,5.188
-0.350,-0.269,0.888,1.953,-5.249,3.662
-0.345,-0.253,0.902,0.305,-1.648,1.770
-0.315,-0.217,0.949,-2.075,3.479,-1.343
-0.299,-0.213,0.981,-3.235,4.211,-0.793
-0.266,-0.219,0.975,-5.432,3.052,1.221
-0.267,-0.221,0.921,-8.057,-2.625,7.629
-0.316,-0.227,0.821,-5.127,-5.188,8.911
-0.343,-0.240,0.823,5.310,-5.127,4.578
-0.358,-0.285,0.906,7.812,-2.808,0.916
-0.347,-0.285,0.942,1.526,4.761,-4.089
-0.274,-0.215,0.961,-3.052,8.118,-4.639
-0.234,-0.179,0.927,-5.310,4.150,1.099
-0.268,-0.197,0.898,-2.808,-2.502,5.981
-0.363,-0.257,0.881,3.723,-9.094,9.399
-0.376,-0.274,0.895,5.310,-1.343,0.427
-0.330,-0.255,0.938,3.296,3.967,-3.784
-0.292,-0.228,0.955,0.427,8.240,-5.920
-0.245,-0.195,0.975,-3.235,8.972,-3.906
-0.246,-0.197,0.977,-6.714,3.845,2.808
-0.279,-0.230,0.922,-7.629,1.404,5.920
-0.302,-0.235,0.897,-4.822,-2.930,8.240
-0.333,-0.249,0.877,-1.770,-3.662,6.348
-0.335,-0.254,0.887,2.808,-0.610,0.977
-0.316,-0.258,0.917,2.991,0.977,-0.366
-0.310,-0.255,0.935,0.366,2.014,-0.183
-0.299,-0.236,0.946,-1.526,2.869,0.427
-0.292,-0.228,0.944,-3.296,2.686,1.892
-0.285,-0.229,0.938,-2.747,0.854,2.380
-0.291,-0.236,0.932,-1.831,-2.380,2.747
-0.308,-0.246,0.921,-2.869,-2.441,2.869
-0.311,-0.242,0.914,-5.798,0.000,2.930
-0.309,-0.232,0.899,-5.981,1.282,2.808
-0.307,-0.233,0.904,-3.357,1.892,2.380
-0.306,-0.241,0.933,-2.014,1.404,1.892
-0.307,-0.242,0.942,-2.930,1.343,0.854
-0.299,-0.231,0.944,-4.944,2.441,0.977
-0.277,-0.222,0.931,-8.972,4.272,2.136

